Folder: LiamBrennan-UCSB.github.io/sandbox/measuring_monthly_increases/offline_data

Note: sandbox/measuring_monthly_increases/offline_data/AEI.txt
2020-11-25, 6.099999904632568
2020-11-27, 5.550000190734863
2020-11-30, 6.090000152587891
2020-12-01, 5.920000076293945
2020-12-02, 5.650000095367432
2020-12-03, 5.519999980926514
2020-12-04, 5.460000038146973
2020-12-07, 5.5
2020-12-08, 5.449999809265137
2020-12-09, 5.389999866485596
2020-12-10, 5.119999885559082
2020-12-11, 5.070000171661377
2020-12-14, 5.0
2020-12-15, 4.614999771118164
2020-12-16, 5.739999771118164
2020-12-17, 5.940000057220459
2020-12-18, 5.800000190734863
2020-12-21, 5.929999828338623
2020-12-22, 5.400000095367432
2020-12-23, 5.590000152587891
2020-12-24, 5.260000228881836
2020-12-28, 5.690000057220459
2020-12-29, 5.449999809265137
2020-12-30, 5.559999942779541
2020-12-31, 5.980000019073486
2021-01-04, 5.889999866485596
2021-01-05, 6.0
2021-01-06, 6.090000152587891
2021-01-07, 6.150000095367432
2021-01-08, 5.869999885559082
2021-01-11, 6.099999904632568
2021-01-12, 6.199999809265137
2021-01-13, 6.75
2021-01-14, 6.329999923706055
2021-01-15, 6.699999809265137
2021-01-19, 6.360000133514404
2021-01-20, 6.519999980926514
2021-01-21, 6.389999866485596
2021-01-22, 5.880000114440918
2021-01-25, 5.900000095367432
2021-01-26, 5.765999794006348
2021-01-27, 6.090000152587891
2021-01-28, 6.03000020980835
2021-01-29, 6.309999942779541
2021-02-01, 6.400000095367432
2021-02-02, 6.0
2021-02-03, 6.010000228881836
2021-02-04, 6.150000095367432
2021-02-05, 6.050000190734863
2021-02-08, 10.550000190734863
2021-02-09, 10.0
2021-02-10, 8.859999656677246
2021-02-11, 12.800000190734863
2021-02-12, 17.559999465942383
2021-02-16, 27.5
2021-02-17, 25.600000381469727
2021-02-18, 23.8799991607666
2021-02-19, 23.889999389648438
2021-02-22, 19.270000457763672
2021-02-23, 16.540000915527344
2021-02-24, 17.75
2021-02-25, 15.279999732971191
2021-02-26, 14.350000381469727
2021-03-01, 14.670000076293945
2021-03-02, 13.619999885559082
2021-03-03, 12.520000457763672
2021-03-04, 10.649999618530273
2021-03-05, 10.260000228881836
2021-03-08, 9.710000038146973
2021-03-09, 11.399999618530273
2021-03-10, 11.3100004196167
2021-03-11, 11.300000190734863
2021-03-12, 10.029999732971191
2021-03-15, 10.3100004196167
2021-03-16, 10.0
2021-03-17, 13.8100004196167
2021-03-18, 11.449999809265137
2021-03-19, 11.220000267028809
2021-03-22, 12.520000457763672
2021-03-23, 10.829999923706055
2021-03-24, 10.479999542236328
2021-03-25, 11.460000038146973
2021-03-26, 11.170000076293945
2021-03-29, 11.40999984741211
2021-03-30, 11.359999656677246
2021-03-31, 11.569999694824219
2021-04-01, 11.430000305175781
2021-04-05, 11.15999984741211
2021-04-06, 11.199999809265137
2021-04-07, 11.289999961853027
2021-04-08, 11.75
2021-04-09, 11.5
2021-04-12, 10.779999732971191
2021-04-13, 10.100000381469727
2021-04-14, 9.920000076293945
2021-04-15, 9.15999984741211
2021-04-16, 9.329999923706055
2021-04-19, 9.3100004196167
2021-04-20, 9.75
2021-04-21, 9.90999984741211
2021-04-22, 10.09000015258789
2021-04-23, 10.380000114440918
2021-04-26, 10.350000381469727
2021-04-27, 10.300000190734863
2021-04-28, 1

Note: sandbox/measuring_monthly_increases/offline_data/ALPP.txt
2017-01-13, 7.5
2017-01-17, 7.5
2017-01-18, 7.5
2017-01-19, 7.5
2017-01-20, 7.5
2017-01-23, 7.5
2017-01-24, 7.5
2017-01-25, 7.5
2017-01-26, 7.5
2017-01-27, 7.5
2017-01-30, 7.5
2017-01-31, 7.5
2017-02-01, 5.0
2017-02-02, 5.0
2017-02-03, 4.0
2017-02-06, 4.0
2017-02-07, 4.0
2017-02-08, 4.0
2017-02-09, 7.5
2017-02-10, 7.5
2017-02-13, 7.5
2017-02-14, 7.5
2017-02-15, 7.5
2017-02-16, 6.5
2017-02-17, 6.5
2017-02-21, 6.5
2017-02-22, 6.5
2017-02-23, 6.5
2017-02-24, 7.75
2017-02-27, 7.75
2017-02-28, 7.75
2017-03-01, 14.0
2017-03-02, 14.0
2017-03-03, 14.0
2017-03-06, 14.0
2017-03-07, 14.0
2017-03-08, 14.0
2017-03-09, 14.0
2017-03-10, 14.0
2017-03-13, 14.0
2017-03-14, 14.0
2017-03-15, 14.0
2017-03-16, 14.0
2017-03-17, 14.0
2017-03-20, 14.0
2017-03-21, 14.0
2017-03-22, 14.0
2017-03-23, 4.050000190734863
2017-03-24, 5.849999904632568
2017-03-27, 4.0
2017-03-28, 4.0
2017-03-29, 4.0
2017-03-30, 4.0
2017-03-31, 2.5
2017-04-03, 2.5
2017-04-04, 1.899999976158142
2017-04-05, 2.0
2017-04-06, 1.75
2017-04-07, 0.8999999761581421
2017-04-10, 1.0499999523162842
2017-04-11, 0.8999999761581421
2017-04-12, 0.8999999761581421
2017-04-13, 1.0499999523162842
2017-04-17, 0.8119999766349792
2017-04-18, 0.800000011920929
2017-04-19, 0.800000011920929
2017-04-20, 0.6499999761581421
2017-04-21, 0.550000011920929
2017-04-24, 0.7260000109672546
2017-04-25, 0.550000011920929
2017-04-26, 0.550000011920929
2017-04-27, 0.550000011920929
2017-04-28, 0.550000011920929
2017-05-01, 0.550000011920929
2017-05-02, 0.25
2017-05-03, 0.25999999046325684
2017-05-04, 0.25999999046325684
2017-05-05, 0.30000001192092896
2017-05-08, 0.2549999952316284
2017-05-09, 0.30000001192092896
2017-05-10, 0.3880000114440918
2017-05-11, 0.3499999940395355
2017-05-12, 0.3499999940395355
2017-05-15, 0.25
2017-05-16, 0.25
2017-05-17, 0.3400000035762787
2017-05-18, 0.3400000035762787
2017-05-19, 0.3400000035762787
2017-05-22, 0.3400000035762787
2017-05-23, 0.25
2017-05-24, 0.25
2017-05-25, 0.25999999046325684
2017-05-26, 0.25999999046325684
2017-05-30, 0.2919999957084656
2017-05-31, 0.2919999957084656
2017-06-01, 0.2919999957084656
2017-06-02, 0.2919999957084656
2017-06-05, 0.25
2017-06-06, 0.29600000381469727
2017-06-07, 0.27000001072883606
2017-06-08, 0.23999999463558197
2017-06-09, 0.289000004529953
2017-06-12, 0.20000000298023224
2017-06-13, 0.18000000715255737
2017-06-14, 0.1850000023841858
2017-06-15, 0.20000000298023224
2017-06-16, 0.18000000715255737
2017-06-19, 0.18000000715255737
2017-06-20, 0.2160000056028366
2017-06-21, 0.2160000056028366
2017-06-22, 0.18000000715255737
2017-06-23, 0.20000000298023224
2017-06-26, 0.18000000715255737
2017-06-27, 0.18000000715255737
2017-06-28, 0.18000000715255737
2017-06-29, 0.18000000715255737
2017-06-30, 0.14800000190734863
2017-07-03, 0.12600000202655792
2017-07-05, 0.15000000596046448
2017-07-06, 0.14000000059604645
2017-07-07, 0.10000000149011612
2017-07-10, 0.10499999672174454
2017-07-11, 0.18000000715255737
2017-07-12, 0.17399999499320984
2017-07-13, 0.171000003814697

Note: README.md
# tempest

This is so that I am on the profile

File: TGA.txt
2005-01-03, 4.88
2005-01-25, 5.95
2005-02-15, 6.78
2005-03-09, 7.17
2005-03-31, 6.41
2005-04-21, 5.28
2005-05-12, 5.01
2005-06-03, 5.56
2005-06-24, 6.91
2005-07-18, 6.33
2005-08-08, 6.43
2005-08-29, 6.27
2005-09-20, 6.37
2005-10-11, 5.97
2005-11-01, 5.36
2005-11-22, 5.56
2005-12-14, 5.8
2006-01-06, 5.15
2006-01-30, 5.84
2006-02-21, 5.78
2006-03-14, 5.57
2006-04-04, 5.28
2006-04-26, 6.02
2006-05-17, 5.16
2006-06-08, 4.88
2006-06-29, 4.64
2006-07-21, 4.5
2006-08-11, 4.86
2006-09-01, 5.08
2006-09-25, 4.56
2006-10-16, 4.9
2006-11-06, 4.58
2006-11-28, 5.03
2006-12-19, 5.19
2007-01-12, 4.74
2007-02-05, 4.7
2007-02-27, 4.44
2007-03-20, 3.86
2007-04-11, 3.91
2007-05-02, 4.17
2007-05-23, 3.97
2007-06-14, 3.94
2007-07-06, 4.9
2007-07-27, 4.89
2007-08-17, 3.88
2007-09-10, 4.36
2007-10-01, 5.01
2007-10-22, 5.34
2007-11-12, 5.1
2007-12-04, 5.08
2007-12-26, 5.24
2008-01-17, 4.83
2008-02-08, 4.85
2008-03-03, 5.4
2008-03-25, 4.68
2008-04-15, 4.73
2008-05-06, 4.81
2008-05-28, 5.18
2008-06-18, 5.33
2008-07-10, 4.51
2008-07-31, 4.22
2008-08-21, 4.13
2008-09-12, 3.31
2008-10-03, 2.8
2008-10-24, 1.79
2008-11-14, 2.15
2008-12-08, 2.01
2008-12-30, 2.44
2009-01-22, 2.38
2009-02-12, 2.75
2009-03-06, 2.52
2009-03-27, 2.86
2009-04-20, 2.4
2009-05-11, 2.79
2009-06-02, 2.87
2009-06-23, 2.6
2009-07-15, 2.57
2009-08-05, 3.28
2009-08-26, 3.13
2009-09-17, 3.64
2009-10-08, 3.89
2009-10-29, 3.96
2009-11-19, 3.44
2009-12-11, 3.33
2010-01-05, 3.57
2010-01-27, 3.59
2010-02-18, 4.03
2010-03-11, 4.29
2010-04-01, 6.11
2010-04-23, 7.34
2010-05-14, 7.3
2010-06-07, 7.41
2010-06-28, 7.66
2010-07-20, 7.18
2010-08-10, 7.69
2010-08-31, 7.16
2010-09-22, 8.83
2010-10-13, 10.42
2010-11-03, 11.75
2010-11-24, 16.87
2010-12-16, 14.68
2011-01-07, 15.82
2011-01-31, 12.15
2011-02-22, 13.77
2011-03-15, 13.37
2011-04-05, 15.62
2011-04-27, 14.31
2011-05-18, 12.84
2011-06-09, 13.38
2011-06-30, 11.4
2011-07-22, 12.0
2011-08-12, 9.33
2011-09-02, 9.33
2011-09-26, 8.52
2011-10-17, 8.82
2011-11-07, 10.15
2011-11-29, 7.91
2011-12-20, 7.84
2012-01-12, 8.96
2012-02-03, 10.18
2012-02-27, 11.17
2012-03-19, 11.83
2012-04-10, 12.37
2012-05-01, 14.43
2012-05-22, 10.58
2012-06-13, 9.8
2012-07-05, 9.0
2012-07-26, 9.16
2012-08-16, 9.93
2012-09-07, 11.96
2012-09-28, 10.86
2012-10-19, 11.39
2012-11-13, 11.39
2012-12-05, 10.19
2012-12-27, 9.43
2013-01-18, 8.78
2013-02-11, 8.75
2013-03-05, 8.46
2013-03-26, 8.62
2013-04-17, 6.9
2013-05-08, 8.24
2013-05-30, 7.67
2013-06-20, 6.09
2013-07-12, 6.02
2013-08-02, 6.74
2013-08-23, 7.03
2013-09-16, 7.69
2013-10-07, 9.06
2013-10-28, 9.28
2013-11-18, 8.58
2013-12-10, 8.88
2014-01-02, 8.33
2014-01-24, 8.39
2014-02-14, 7.33
2014-03-10, 7.68
2014-03-31, 7.58
2014-04-22, 8.0
2014-05-13, 6.65
2014-06-04, 6.94
2014-06-25, 7.18
2014-07-17, 6.56
2014-08-07, 6.11
2014-08-28, 6.73
2014-09-19, 6.24
2014-10-10, 5.08
2014-10-31, 4.34
2014-11-21, 4.03
2014-12-15, 2.9
2015-01-07, 3.54
2015-01-29, 2.76
2015-02-20, 3.03
2015-03-13, 2.83
2015-04-06, 4.03
2015-04-27, 4.39
2015-05-18, 4.18
2015-06-09, 4.15
2015-06-30, 3.99
2015-07-22, 3.1
2015-08-12, 3.09
2015-09-02, 2.85
2015-09-24, 2.61
2015-10-15, 2.84
2015-11-05, 2.79
2015-11-27, 1.99
2015-12-18, 1.68
2016-01-12, 1.35
2016-02-03, 1.27
2016-02-25, 1.46
2016-03-17, 1.68
2016-04-08, 1.75
2016-04-29, 1.94
2016-05-20, 1.75
2016-06-13, 1.72
2016-07-05, 1.8
2016-07-26, 1.65
2016-08-16, 1.92
2016-09-07, 1.97
2016-09-28, 1.94
2016-10-19, 2.06
2016-11-09, 1.84
2016-12-01, 1.93
2016-12-22, 1.69
2017-01-17, 1.8
2017-02-07, 1.7
2017-03-01, 1.7
2017-03-22, 1.5
2017-04-12, 1.64
2017-05-04, 1.38
2017-05-25, 1.48
2017-06-16, 1.28
2017-07-10, 1.28
2017-07-31, 1.35
2017-08-21, 1.2
2017-09-12, 1.17
2017-10-03, 1.42
2017-10-24, 1.57
2017-11-14, 1.48
2017-12-06, 1.37
2017-12-28, 1.4
2018-01-22, 1.47
2018-02-12, 1.33
2018-03-06, 1.28
2018-03-27, 1.35
2018-04-18, 1.39
2018-05-09, 2.12
2018-05-31, 2.54
2018-06-21, 2.31
2018-07-13, 4.05
2018-08-03, 3.22
2018-08-24, 3.49
2018-09-17, 3.55
2018-10-08, 3.28
2018-10-29, 2.31
2018-11-19, 2.32
2018-12-12, 1.88
2019-01-04, 1.94
2019-01-28, 1.79
2019-02-19, 2.12
2019-03-12, 2.11
2019-04-02, 1.86
2019-04-24, 1.92
2019-05-15, 1.75
2019-06-06, 1.51
2019-06-27, 1.42
2019-07-19, 1.45
2019-08-09, 1.43
2019-08-30, 1.33
2019-09-23, 1.41
2019-10-14, 1.3
2019-11-04, 1.24
2019-11-25, 1.14
2019-12-17, 1.25
2020-01-09, 1.39
2020-01-31, 1.28
2020-02-24, 1.21
2020-03-16, 0.51
2020-04-06, 0.41
2020-04-28, 0.47
2020-05-19, 0.52
2020-06-10, 0.63
2020-07-01, 0.59
2020-07-23, 0.6
2020-08-13, 0.6
2020-09-03, 0.51
2020-09-25, 0.4
2020-10-16, 0.45
2020-11-06, 0.43
2020-11-30, 0.51
2020-12-21, 0.83
2021-01-13, 1.12
2021-02-04, 1.23
2021-02-26, 1.45
2021-03-19, 1.68
2021-04-12, 1.46
2021-05-03, 1.59
2021-05-24, 1.79
2021-06-15, 1.85
2021-07-07, 1.79
2021-07-28, 1.65
2021-08-18, 1.62
2021-09-09, 1.8
2021-09-30, 2.19
2021-10-21, 2.64
2021-11-11, 3.0
2021-12-03, 2.62
2021-12-27, 3.07
2021-12-32, 3.6515